File: Trabalhando com textos/Papers_NotWorkingScripts/A meta-analysis of the mechanical/CSs_dados_tratados_002.csv
Device ,Size [cm2],Temperature [C],Irradiance [W/m2],Jsc [mA/cm2],Isc [mA],Voc [mV],Impp [mA],Vmpp [mV],Pmpp [mW],FF [%],Eta [%],n1 ,n2 ,IscSlope [Ohm.cm2],Rshunt [Ohm.cm2],Rseries [mOhm.cm2],Jo1 [A/cm2],Jo2 [A/cm2],Slope Voc [mOhm.cm2],GaAs+PMMA+TR0%+L430W,GaAs+PMMA+TR1%+L430W,GaAs+PMMA+TR10%+L430W,GaAs+PMMA+TR15%+L430W,GaAs+PMMA+TR2%+L430W,GaAs+PMMA+TR3%+L430W,GaAs+PMMA+TR4%+L430W,GaAs+PMMA+TR5%+L430W,GaAs+PMMA+TR6%+L430W,GaAs+PMMA+TR7%+L430W,GaAs+PMMA+TR8%+L430W,GaAs+PMMA+TR9%+L430W,EuTTAbipy5%0.01,TiO4Al2O3,TiO2,TiO2Al2O3,Al2O3,-cap,RTA920,PMMA,TR,ARC,Submon2x4,SubMon2/4,SubMonML4/4,Al30%,Al82%,f2,f5,f8,f10,Ref GaAs,QDSKmeio,QDSKfundo,QDSK,I+,Si
3906,0.03538704,25.36,995.051,16.743,0.592484,882.761,0.520127,714.942,0.371861,71.0985,10.5084,0.0,0.0,298222,0.0,0.0,0.0,0,126296,0,0,0,0,0,0,0,0,0,0,0,0,0,0,0,0,0,0,0,0,0,0,0,0,0,0,0,0,0,0,0,0,0,0,0,0,0
3906,0.27075,25.0,990.832,13.1488,3.56004,825.652,3.16409,635.055,2.00937,68.3611,7.42151,3.7022,0.0,17783.5,0.0,0.042536,5.8984e-07,0,25630.4,0,0,0,0,0,0,0,0,0,0,0,0,0,0,0,0,0,0,0,0,0,0,0,0,0,0,0,0,0,0,0,0,0,0,0,0,0
3908,0.0483,25.0,1001.86,12.6761,0.612254,908.309,0.569691,741.837,0.422618,75.9947,8.74986,2.2142,0.0,230392,2.75885e+06,26.848,7.0737e-11,0,117038,0,0,0,0,0,0,0,0,0,0,0,0,0,0,0,0,0,0,0,0,0,0,0,0,0,0,0,1,0,0,0,0,0,0,0,0,0
3908,0.0483,25.0,1001.86,12.1892,0.588739,902.44,0.548421,755.353,0.414251,77.9692,8.57663,2.4323,0.0,520990,0.0,0.087891,3.051e-10,0,94634.2,0,0,0,0,0,0,0,0,0,0,0,0,0,0,0,0,0,0,0,0,0,0,0,0,0,0,0,0,0,1,0,0,0,0,0,0,0
3908,0.0483,25.0,1001.86,12.2135,0.58991,903.919,0.550493,753.358,0.414718,77.7746,8.58629,2.0922,0.0,100000000.0,4.01011e+06,12.497,2.8967e-11,0,101968,0,0,0,0,0,0,0,0,0,0,0,0,0,0,0,0,0,0,0,0,0,0,0,0,0,0,0,0,1,0,0,0,0,0,0,0,0
3908,0.0483,25.0,996.818,16.1945,0.782192,944.352,0.73133,787.779,0.576127,77.9957,11.9281,2.6351,0.0,165690,0.0,0.074719,6.4238e-10,0,73992.1,0,0,0,0,0,0,0,0,0,0,0,0,0,0,0,0,0,1,0,0,0,0,0,0,0,0,0,0,0,1,0,0,0,0,0,0,0
3908,0.0483,25.0,997.93,19.7229,0.952615,961.93,0.89397,807.896,0.722235,78.8166,14.9531,2.297,0.0,296529,0.0,2.2434,7.6877e-11,0,59106.4,0,0,0,0,0,0,0,0,0,0,0,0,0,0,0,0,0,1,0,1,0,0,0,0,0,0,0,0,1,0,0,0,0,0,0,0,0
3908,0.0483,25.0,1001.86,12.69,0.612926,905.511,0.571129,742.961,0.424327,76.4537,8.78524,2.7356,0.0,246609,0.0,0.85453,1.5204e-09,0,106497,0,0,0,0,0,0,0,0,0,0,0,0,0,0,0,0,0,0,0,0,0,0,0,0,0,0,0,1,0,0,0,0,0,0,0,0,0
3908,0.0483,25.0,1001.86,12.3238,0.595237,846.492,0.432521,607.544,0.262776,52.1521,5.44049,5.0,0.0,19228.9,7382.8,1.0617e-07,6.647e-07,0,228423,0,0,0,0,0,0,0,0,0,0,0,0,0,0,0,0,0,0,0,0,0,0,0,0,0,0,0,0,1,0,0,0,0,0,0,0,0
3908,0.0483,25.0,1001.86,12.4755,0.602569,906.161,0.560104,744.348,0.416912,76.3541,8.63173,2.2333,0.0,1.80171e+06,1.98981e+06,18.452,8.2882e-11,0,109519,0,0,0,0,0,0,0,0,0,0,0,0,0,0,0,0,0,0,0,0,0,0,0,0,0,0,0,0,0,1,0,0,0,0,0,0,0
3908,0.0483,25.0,1001.86,10.7076,0.517178,21.4818,0.265941,10.4328,0.00277451,24.9733,0.0574434,3.3,0.0,41.5509,0.0,45.686,0.0,0,41776.1,0,0,0,0,0,0,0,0,0,0,0,0,0,0,0,0,0,0,0,0,0,0,0,0,0,0,0,0,0,1,0,0,0,0,0,0,0
3908,0.0483,25.0,996.818,16.0316,0.774324,935.363,0.72234,780.658,0.5639,77.8573,11.675,2.6477,0.0,100000000.0,0.0,2.4151,8.3097e-10,0,73503.9,0,0,0,0,0,0,0,0,0,0,0,0,0,0,0,0,0,1,0,0,0,0,0,0,0,0,0,0,0,1,0,0,0,0,0,0,0
3908,0.0483,25.0,997.93,19.2877,0.931597,936.628,0.870738,781.219,0.680237,77.9588,14.0836,2.5391,0.0,386359,0.0,0.87967,5.1675e-10,0,63848.9,0,0,0,0,0,0,0,0,0,0,0,0,0,0,0,0,0,1,0,1,1,0,0,0,0,0,0,0,0,1,0,0,0,0,0,0,0
3908,0.0483,25.0,997.93,19.5116,0.942411,945.171,0.876459,788.492,0.691081,77.5852,14.3081,2.1819,0.0,133035,368053,7.859,4.3862e-11,0,60560.7,0,0,0,0,0,0,0,0,0,0,0,0,0,0,0,0,0,1,0,1,1,0,0,0,0,0,0,0,1,0,0,0,0,0,0,0,0
3908,0.0483,25.0,1001.86,12.7479,0.615721,900.07,0.57188,737.397,0.421702,76.0932,8.7309,2.2594,0.0,,,,1.1329e-10,0,,0,0,0,0,0,0,0,0,0,0,0,0,0,0,0,0,0,0,0,0,0,0,0,0,0,0,0,1,0,0,0,0,0,0,0,0,0
3908,0.0483,25.0,1001.86,12.1306,0.585906,897.618,0.547527,750.411,0.41087,78.124,8.50662,2.0091,0.0,,,,1.615e-11,0,,0,0,0,0,0,0,0,0,0,0,0,0,0,0,0,0,0,0,0,0,0,0,0,0,0,0,0,0,0,1,0,0,0,0,0,0,0
3908,0.0483,25.0,1001.86,12.3012,0.59415,901.712,0.552197,749.322,0.413773,77.2322,8.56674,2.1147,0.0,,,,3.6172e-11,0,,0,0,0,0,0,0,0,0,0,0,0,0,0,0,0,0,0,0,0,0,0,0,0,0,0,0,0,0,1,0,0,0,0,0,0,0,0
3908,0.0483,25.0,996.818,16.8995,0.816246,915.295,0.637673,706.054,0.450232,60.2635,9.32157,3.6594,0.0,,,,4.2005e-08,0,,0,0,0,0,0,0,0,0,0,0,0,0,0,0,0,0,0,1,0,0,0,0,0,0,0,0,0,0,1,0,0,0,0,0,0,0,0
3908,0.0483,25.0,997.93,19.9893,0.965483,966.826,0.892287,794.674,0.709077,75.9627,14.6807,2.5566,0.0,,,,3.8554e-10,0,,0,0,0,0,0,0,0,0,0,0,0,0,0,0,0,0,0,1,0,1,0,0,0,0,0,0,0,1,0,0,0,0,0,0,0,0,0
3908,0.0483,25.0,997.93,20.2829,0.979666,951.651,0.8957,758.818,0.679674,72.9029,14.0719,3.6414,0.0,,,,3.708e-08,0,,0,0,0,0,0,0,0,0,0,0,0,0,0,0,0,0,0,1,0,1,1,0,0,0,0,0,0,1,0,0,0,0,0,0,0,0,0
3908,0.0483,25.0,997.93,19.0385,0.919562,949.946,0.804151,754.456,0.606697,69.4532,12.561,2.144,0.0,,,,2.5845e-11,0,,0,0,0,0,0,0,0,0,0,0,0,0,0,0,0,0,0,1,0,1,1,0,0,0,0,0,0,0,0,1,0,0,0,0,0,0,0
3908,0.041848,24.965,989.436,19.0282,0.796293,945.519,0.745832,785.618,0.585939,77.8232,14.0016,2.1816,0.0,100000000.0,0.0,9.3912,3.5242e-11,0,74980.2,0,0,0,0,0,0,0,0,0,0,0,0,0,0,0,0,0,0,0,0,0,0,0,0,0,0,0,0,0,0,0,0,0,0,0,0,0
3908,0.242419,25.03,989.436,19.5151,4.73083,937.588,4.39214,758.92,3.33328,75.149,13.7501,2.4304,0.0,79337.9,0.0,3.492,1.4244e-09,0,16174.8,0,0,0,0,0,0,0,0,0,0,0,0,0,0,0,0,0,0,0,0,0,0,0,0,0,0,0,0,0,0,0,0,0,0,0,0,0
3909,0.0483,25.0,1001.86,11.7247,0.566302,603.6,0.468222,460.219,0.215485,63.0403,4.46138,3.2755,0.0,16977.6,80243.9,2.876e-06,4.087e-07,0,128330,0,0,0,0,0,0,0,0,0,0,0,0,0,0,0,0,0,0,0,0,0,0,0,0,0,0,0,0,1,0,0,0,0,0,0,0,0
3909,0.0483,25.0,1001.86,11.8958,0.574569,617.753,0.467913,460.904,0.215663,60.7601,4.46507,3.1433,0.0,18470.8,24169.8,26.276,2.5759e-07,0,183332,0,0,0,0,0,0,0,0,0,0,0,0,0,0,0,0,0,0,0,0,0,0,0,0,0,0,0,1,0,0,0,0,0,0,0,0,0
3909,0.0483,25.0,996.818,13.9575,0.674148,565.867,0.49742,400.414,0.199174,52.2112,4.12369,3.993,0.0,4543.77,6093.1,0.28876,2.3065e-06,0,160678,0,0,0,0,0,0,0,0,0,0,0,0,0,0,0,0,0,1,0,0,0,0,0,0,0,0,0,1,0,0,0,0,0,0,0,0,0
3909,0.0483,25.0,996.818,14.44,0.697452,583.898,0.565223,435.873,0.246365,60.4962,5.10073,3.6442,0.0,13684.4,0.0,2.8107e-08,1.3421e-06,0,119932,0,0,0,0,0,0,0,0,0,0,0,0,0,0,0,0,0,1,0,0,0,0,0,0,0,0,0,0,0,1,0,0,0,0,0,0,0
3909,0.0483,25.0,997.93,17.7444,0.857053,671.528,0.728949,521.667,0.380269,66.0722,7.87306,3.1073,0.0,20256.4,88386.1,4.3072e-07,1.8214e-07,0,89801.7,0,0,0,0,0,0,0,0,0,0,0,0,0,0,0,0,0,1,0,1,0,0,0,0,0,0,0,0,0,1,0,0,0,0,0,0,0
3909,0.0483,25.0,997.93,18.0678,0.872674,604.318,0.711571,443.768,0.315773,59.8766,6.53773,3.387,0.0,11100.1,15140.7,4.3876,7.929e-07,0,109518,0,0,0,0,0,0,0,0,0,0,0,0,0,0,0,0,0,1,0,1,1,0,0,0,0,0,0,1,0,0,0,0,0,0,0,0,0
3909,0.0483,25.0,997.93,17.6005,0.850102,613.321,0.707002,469.202,0.331727,63.6241,6.86805,3.2196,0.0,12446.4,137402,4.0768e-08,4.9408e-07,0,86075.5,0,0,0,0,0,0,0,0,0,0,0,0,0,0,0,0,0,1,0,1,1,0,0,0,0,0,0,0,1,0,0,0,0,0,0,0,0
3909,0.0483,25.0,1001.86,11.6489,0.562643,633.305,0.460747,484.15,0.223071,62.6033,4.61845,2.7786,0.0,19167.5,13163.6,2.1206e-11,7.1676e-08,0,128721,0,0,0,0,0,0,0,0,0,0,0,0,0,0,0,0,0,0,0,0,0,0,0,0,0,0,0,0,1,0,0,0,0,0,0,0,0
3909,0.0483,25.0,1001.86,11.866,0.573129,652.694,0.473962,491.173,0.232797,62.2323,4.81982,3.0041,0.0,20133.2,19864.9,19.515,1.136e-07,0,159650,0,0,0,0,0,0,0,0,0,0,0,0,0,0,0,0,0,0,0,0,0,0,0,0,0,0,0,1,0,0,0,0,0,0,0,0,0
3909,0.0483,25.0,996.818,15.2959,0.73879,639.339,0.610637,477.236,0.291418,61.697,6.0335,3.7489,0.0,17699.1,0.0,2.1362e-07,9.4205e-07,0,123179,0,0,0,0,0,0,0,0,0,0,0,0,0,0,0,0,0,1,0,0,0,0,0,0,0,0,0,1,0,0,0,0,0,0,0,0,0
3909,0.0483,25.0,996.818,14.7053,0.710267,618.911,0.590984,475.847,0.281218,63.9726,5.82232,3.3029,0.0,17039,0.0,1.3808e-06,4.6638e-07,0,100253,0,0,0,0,0,0,0,0,0,0,0,0,0,0,0,0,0,1,0,0,0,0,0,0,0,0,0,0,0,1,0,0,0,0,0,0,0
3909,0.0483,25.0,997.93,18.1915,0.878648,685.755,0.749668,538.418,0.403635,66.9891,8.35682,2.8726,0.0,17534.3,29753.9,0.06067,7.6514e-08,0,82469.3,0,0,0,0,0,0,0,0,0,0,0,0,0,0,0,0,0,1,0,1,0,0,0,0,0,0,0,0,1,0,0,0,0,0,0,0,0
3909,0.0483,25.0,997.93,17.3076,0.835956,596.158,0.683815,451.231,0.308558,61.9145,6.38837,2.8263,0.0,12077,9919.65,1.5239e-13,2.0899e-07,0,88910.1,0,0,0,0,0,0,0,0,0,0,0,0,0,0,0,0,0,1,0,1,1,0,0,0,0,0,0,0,0,1,0,0,0,0,0,0,0
3909,0.0483,25.0,997.93,16.1167,0.778435,577.41,0.57601,411.681,0.237132,52.7575,4.90958,3.993,0.0,4133.27,5438.92,0.0050773,2.3797e-06,0,142948,0,0,0,0,0,0,0,0,0,0,0,0,0,0,0,0,0,1,0,1,1,0,0,0,0,0,0,1,0,0,0,0,0,0,0,0,0
3909,0.0483,25.0,1001.86,11.8523,0.572466,549.576,0.414435,388.807,0.161135,51.2169,3.33613,3.993,0.0,,,,2.2759e-06,0,,0,0,0,0,0,0,0,0,0,0,0,0,0,0,0,0,0,0,0,0,0,0,0,0,0,0,0,1,0,0,0,0,0,0,0,0,0
3909,0.0483,25.0,1001.86,11.5448,0.557614,566.498,0.441687,422.237,0.186496,59.0388,3.86121,3.198,0.0,,,,5.2543e-07,0,,0,0,0,0,0,0,0,0,0,0,0,0,0,0,0,0,0,0,0,0,0,0,0,0,0,0,0,0,0,1,0,0,0,0,0,0,0
3909,0.0483,25.0,1001.86,11.037,0.533088,586.605,0.359114,330.341,0.11863,37.9358,2.45611,3.2513,0.0,,,,4.3691e-07,0,,0,0,0,0,0,0,0,0,0,0,0,0,0,0,0,0,0,0,0,0,0,0,0,0,0,0,0,0,1,0,0,0,0,0,0,0,0
3909,0.0483,25.0,996.818,14.8534,0.717419,660.502,0.610973,515.636,0.315039,66.4841,6.52255,3.1145,0.0,,,,1.7818e-07,0,,0,0,0,0,0,0,0,0,0,0,0,0,0,0,0,0,0,1,0,0,0,0,0,0,0,0,0,0,0,1,0,0,0,0,0,0,0
3909,0.0483,25.0,997.93,18.5775,0.897293,651.792,0.740671,485.362,0.359494,61.4678,7.44293,3.993,0.0,,,,1.5262e-06,0,,0,0,0,0,0,0,0,0,0,0,0,0,0,0,0,0,0,1,0,1,0,0,0,0,0,0,0,1,0,0,0,0,0,0,0,0,0
3909,0.0483,25.0,997.93,17.7618,0.857895,630.616,0.717073,484.544,0.347453,64.224,7.19364,3.3386,0.0,,,,5.3629e-07,0,,0,0,0,0,0,0,0,0,0,0,0,0,0,0,0,0,0,1,0,1,1,0,0,0,0,0,0,0,0,1,0,0,0,0,0,0,0
3909,0.0483,25.0,997.93,18.0648,0.872529,679.052,0.708056,463.447,0.328147,55.3841,6.79392,3.6812,0.0,,,,6.5331e-07,0,,0,0,0,0,0,0,0,0,0,0,0,0,0,0,0,0,0,1,0,1,0,0,0,0,0,0,0,1,0,0,0,0,0,0,0,0,0
3909,0.039935,24.98,989.436,18.3896,0.73439,699.274,0.635837,558.743,0.35527,69.1805,8.8962,2.8601,0.0,24964.5,0.0,1.1725e-06,5.0403e-08,0,82642.8,0,0,0,0,0,0,0,0,0,0,0,0,0,0,0,0,0,0,0,0,0,0,0,0,0,0,0,0,0,0,0,0,0,0,0,0,0
3910,0.0483,25.0,1001.86,12.3648,0.597219,865.969,0.546203,703.211,0.384096,74.2684,7.9523,2.8392,0.0,71147.9,0.0,0.064328,3.9614e-09,0,108598,0,0,0,0,0,0,0,0,0,0,0,0,0,0,0,0,0,0,0,0,0,0,0,0,0,0,0,1,0,0,0,0,0,0,0,0,0
3910,0.0483,25.0,1001.86,11.7997,0.569925,880.03,0.462546,516.797,0.239042,47.6605,4.94912,1.8118,0.0,79789.9,60291.8,613.84,3.413e-12,0,693909,0,0,0,0,0,0,0,0,0,0,0,0,0,0,0,0,0,0,0,0,0,0,0,0,0,0,0,0,0,1,0,0,0,0,0,0,0
3910,0.0483,25.0,1001.86,12.0658,0.582778,873.748,0.537557,727.829,0.391249,76.836,8.1004,2.0856,0.0,98468.4,94535.8,0.0,4.7182e-11,0,88364.2,0,0,0,0,0,0,0,0,0,0,0,0,0,0,0,0,0,0,0,0,0,0,0,0,0,0,0,0,1,0,0,0,0,0,0,0,0
3910,0.0483,25.0,996.818,12.7953,0.618011,884.002,0.565998,763.117,0.431923,79.06,8.9425,1.7863,0.0,92241.9,55041.8,6.0489e-10,2.4075e-12,0,64776.6,0,0,0,0,0,0,0,0,0,0,0,0,0,0,0,0,0,1,0,0,0,0,0,0,0,0,0,0,0,1,0,0,0,0,0,0,0
3910,0.0483,25.0,1001.86,12.2175,0.590107,450.638,0.452129,314.058,0.141995,53.3966,2.93985,3.3977,0.0,7905.1,11906.2,9.8351e-05,3.1591e-06,0,155170,0,0,0,0,0,0,0,0,0,0,0,0,0,0,0,0,0,0,0,0,0,0,0,0,0,0,0,0,1,0,0,0,0,0,0,0,0
3910,0.0483,25.0,1001.86,12.2961,0.593904,881.403,0.541754,715.259,0.387494,74.0243,8.02266,2.6748,0.0,80446.9,106954,1.3165,1.5174e-09,0,123760,0,0,0,0,0,0,0,0,0,0,0,0,0,0,0,0,0,0,0,0,0,0,0,0,0,0,0,1,0,0,0,0,0,0,0,0,0
3910,0.0483,25.0,1001.86,11.6081,0.560669,870.798,0.485639,567.145,0.275428,56.4136,5.70244,2.1943,0.0,75014,112754,388.35,1.0727e-10,0,486891,0,0,0,0,0,0,0,0,0,0,0,0,0,0,0,0,0,0,0,0,0,0,0,0,0,0,0,0,0,1,0,0,0,0,0,0,0
3910,0.0483,25.0,1001.86,12.3648,0.597219,865.969,0.546203,703.211,0.384096,74.2684,7.9523,2.8392,0.0,,,,3.9614e-09,0,,0,0,0,0,0,0,0,0,0,0,0,0,0,0,0,0,0,0,0,0,0,0,0,0,0,0,0,1,0,0,0,0,0,0,0,0,0
3910,0.0483,25.0,1001.86,11.7997,0.569925,880.03,0.462546,516.797,0.239042,47.6605,4.94912,1.8118,0.0,,,,3.413e-12,0,,0,0,0,0,0,0,0,0,0,0,0,0,0,0,0,0,0,0,0,0,0,0,0,0,0,0,0,0,0,1,0,0,0,0,0,0,0
3910,0.0483,25.0,1001.86,12.0658,0.582778,873.748,0.537557,727.829,0.391249,76.836,8.1004,2.0856,0.0,,,,4.7182e-11,0,,0,0,0,0,0,0,0,0,0,0,0,0,0,0,0,0,0,0,0,0,0,0,0,0,0,0,0,0,1,0,0,0,0,0,0,0,0
3910,0.0483,25.0,996.818,12.7953,0.618011,884.002,0.565998,763.117,0.431923,79.06,8.9425,1.7863,0.0,,,,2.4075e-12,0,,0,0,0,0,0,0,0,0,0,0,0,0,0,0,0,0,0,1,0,0,0,0,0,0,0,0,0,0,0,1,0,0,0,0,0,0,0
3910,0.239691,25.12,989.436,16.0722,3.85236,950.454,3.57744,767.623,2.74612,75.0001,11.4569,2.5551,0.0,79035.3,0.0,6.007,1.9295e-09,0,24352.1,0,0,0,0,0,0,0,0,0,0,0,0,0,0,0,0,0,0,0,0,0,0,0,0,0,0,0,0,0,0,0,0,0,0,0,0,0
3910,0.10245,25.0,982.04,17.7927,1.82287,908.618,1.64222,748.452,1.22912,74.2095,11.9973,2.5847,0.0,85414,27380.8,2.5059,1.9623e-09,0,40753.3,0,0,0,0,0,0,0,0,0,0,0,0,0,0,0,0,0,0,0,0,0,1,0,0,0,0,0,0,0,0,0,0,0,0,0,0,0
3941,0.04,25.0,999.866,23.4797,0.939186,933.2,0.858004,713.227,0.611952,69.8218,15.2988,2.9652,0.0,212947,0.0,56.532,4.4436e-09,0,143717,0,0,0,0,0,0,0,0,0,0,0,0,0,0,0,0,0,1,0,0,0,0,0,0,0,0,1,0,0,0,0,0,0,0,0,0,0
3941,0.0483,25.0,999.866,20.9431,1.01155,913.552,0.926752,730.19,0.676705,73.228,14.0105,2.8532,0.0,,,,3.8543e-09,0,,0,0,0,0,0,0,0,0,0,0,0,0,0,0,0,0,0,1,0,0,0,0,0,0,0,0,1,0,0,0,0,0,0,0,0,0,0
3941,0.0483,25.0,996.565,12.4161,0.599697,892.833,0.556745,724.466,0.403343,75.3307,8.35078,2.4452,0.0,196548,0.0,26.818,3.9323e-10,0,137233,0,0,0,0,0,0,0,0,0,0,0,0,0,0,0,0,0,0,0,0,0,0,0,0,0,0,1,0,0,0,0,0,0,0,0,0,0
3941,0.0483,25.0,996.565,8.75773,0.422998,896.865,0.209139,446.227,0.0933232,24.5994,1.93216,3.3,0.0,1831.57,0.0,2376.1,0.0,0,2.15446e+06,0,0,0,0,0,0,0,0,0,0,0,0,0,0,0,0,0,0,0,0,0,0,0,0,0,0,1,0,0,0,0,0,0,0,0,0,0
3941,0.0483,25.0,996.565,12.544,0.605876,894.219,0.561703,718.442,0.403551,74.4853,8.35509,2.2619,0.0,230671,0.0,54.997,1.2175e-10,0,141615,0,0,0,0,0,0,0,0,0,0,0,0,0,0,0,0,0,0,0,0,0,0,0,0,0,0,1,0,0,0,0,0,0,0,0,0,0
3941,0.0483,25.0,996.565,0.258863,0.0125031,880.664,0.00281745,407.7,0.00114867,10.4321,0.0237821,3.3,0.0,17066.8,0.0,83257.0,0.0,0,1.75314e+08,0,0,0,0,0,0,0,0,0,0,0,0,0,0,0,0,0,0,0,0,0,0,0,0,0,0,1,0,0,0,0,0,0,0,0,0,0
3941,0.0483,25.0,996.565,0.659422,0.0318501,14.1882,0.0146702,6.77185,9.93444e-05,21.9839,0.00205682,2.7623,0.0,634.048,0.0,0.00028388,0.00016365,0,484898,0,0,0,0,0,0,0,0,0,0,0,0,0,0,0,0,0,0,0,0,0,0,0,0,0,0,1,0,0,0,0,0,0,0,0,0,0
3941,0.0483,25.0,996.565,12.0625,0.58262,892.438,0.453821,565.691,0.256722,49.3742,5.31516,5.0,0.0,17612.3,18349.3,341.62,5.2951e-07,0,612967,0,0,0,0,0,0,0,0,0,0,0,0,0,0,0,0,0,0,0,0,0,0,0,0,0,0,1,0,0,0,0,0,0,0,0,0,0
3941,0.0483,25.0,996.565,12.0113,0.580146,893.05,0.400458,470.512,0.18842,36.3676,3.90104,2.0873,0.0,42675.7,0.0,899.88,3.3615e-11,0,990424,0,0,0,0,0,0,0,0,0,0,0,0,0,0,0,0,0,0,0,0,0,0,0,0,0,0,1,0,0,0,0,0,0,0,0,0,0
3941,0.0483,25.0,996.565,18.5042,0.893752,922.497,0.828345,760.005,0.629547,76.3565,13.0341,2.6475,0.0,171544,0.0,2.5933,1.1106e-09,0,74997.9,0,0,0,0,0,0,0,0,0,0,0,0,0,0,0,0,0,1,0,0,0,0,0,0,0,0,1,0,0,0,0,0,0,0,0,0,0
3941,0.0483,25.0,996.565,18.1735,0.87778,906.846,0.758054,671.07,0.508707,63.907,10.5322,2.0718,0.0,22390.1,6176.27,134.27,3.0421e-11,0,195075,0,0,0,0,0,0,0,0,0,0,0,0,0,0,0,0,0,1,0,0,0,0,0,0,0,0,1,0,0,0,0,0,0,0,0,0,0
3941,0.0483,25.0,996.565,17.7334,0.856521,911.077,0.788981,738.776,0.582881,74.6941,12.0679,2.8304,0.0,100000000.0,0.0,6.8653,3.0131e-09,0,93648.7,0,0,0,0,0,0,0,0,0,0,0,0,0,0,0,0,0,1,0,0,0,0,0,0,0,0,1,0,0,0,0,0,0,0,0,0,0
3941,0.0483,25.0,996.565,18.1917,0.878658,923.647,0.820278,766.05,0.628374,77.427,13.0098,2.0962,0.0,183571,458737,14.762,3.0795e-11,0,75114.2,0,0,0,0,0,0,0,0,0,0,0,0,0,0,0,0,0,1,0,0,0,0,0,0,0,0,1,0,0,0,0,0,0,0,0,0,0
3941,0.0483,25.0,996.565,12.4161,0.599697,892.833,0.556745,724.466,0.403343,75.3307,8.35078,2.4452,0.0,196548,0.0,26.818,3.9323e-10,0,137233,0,0,0,0,0,0,0,0,0,0,0,0,0,0,0,0,0,0,0,0,0,0,0,0,0,0,1,0,0,0,0,0,0,0,0,0,0
3941,0.0483,25.0,996.565,8.75773,0.422998,896.865,0.209139,446.227,0.0933232,24.5994,1.93216,3.3,0.0,1831.57,0.0,2376.1,0.0,0,2.15446e+06,0,0,0,0,0,0,0,0,0,0,0,0,0,0,0,0,0,0,0,0,0,0,0,0,0,0,1,0,0,0,0,0,0,0,0,0,0
3941,0.0483,25.0,996.565,12.544,0.605876,894.219,0.561703,718.442,0.403551,74.4853,8.35509,2.2619,0.0,230671,0.0,54.997,1.2175e-10,0,141615,0,0,0,0,0,0,0,0,0,0,0,0,0,0,0,0,0,0,0,0,0,0,0,0,0,0,1,0,0,0,0,0,0,0,0,0,0
3941,0.0483,25.0,996.565,0.258863,0.0125031,880.664,0.00281745,407.7,0.00114867,10.4321,0.0237821,3.3,0.0,17066.8,0.0,83257.0,0.0,0,1.75314e+08,0,0,0,0,0,0,0,0,0,0,0,0,0,0,0,0,0,0,0,0,0,0,0,0,0,0,1,0,0,0,0,0,0,0,0,0,0
3941,0.0483,25.0,996.565,0.659422,0.0318501,14.1882,0.0146702,6.77185,9.93444e-05,21.9839,0.00205682,2.7623,0.0,634.048,0.0,0.00028388,0.00016365,0,484898,0,0,0,0,0,0,0,0,0,0,0,0,0,0,0,0,0,0,0,0,0,0,0,0,0,0,1,0,0,0,0,0,0,0,0,0,0
3941,0.0483,25.0,996.565,12.0625,0.58262,892.438,0.453821,565.691,0.256722,49.3742,5.31516,5.0,0.0,17612.3,18349.3,341.62,5.2951e-07,0,612967,0,0,0,0,0,0,0,0,0,0,0,0,0,0,0,0,0,0,0,0,0,0,0,0,0,0,1,0,0,0,0,0,0,0,0,0,0
3941,0.0483,25.0,996.565,12.0113,0.580146,893.05,0.400458,470.512,0.18842,36.3676,3.90104,2.0873,0.0,42675.7,0.0,899.88,3.3615e-11,0,990424,0,0,0,0,0,0,0,0,0,0,0,0,0,0,0,0,0,0,0,0,0,0,0,0,0,0,1,0,0,0,0,0,0,0,0,0,0
3941,0.0483,25.0,996.565,18.5042,0.893752,922.497,0.828345,760.005,0.629547,76.3565,13.0341,2.6475,0.0,171544,0.0,2.5933,1.1106e-09,0,74997.9,0,0,0,0,0,0,0,0,0,0,0,0,0,0,0,0,0,1,0,0,0,0,0,0,0,0,1,0,0,0,0,0,0,0,0,0,0
3941,0.0483,25.0,996.565,18.1735,0.87778,906.846,0.758054,671.07,0.508707,63.907,10.5322,2.0718,0.0,22390.1,6176.27,134.27,3.0421e-11,0,195075,0,0,0,0,0,0,0,0,0,0,0,0,0,0,0,0,0,1,0,0,0,0,0,0,0,0,1,0,0,0,0,0,0,0,0,0,0
3941,0.0483,25.0,996.565,17.7334,0.856521,911.077,0.788981,738.776,0.582881,74.6941,12.0679,2.8304,0.0,100000000.0,0.0,6.8653,3.0131e-09,0,93648.7,0,0,0,0,0,0,0,0,0,0,0,0,0,0,0,0,0,1,0,0,0,0,0,0,0,0,1,0,0,0,0,0,0,0,0,0,0
3941,0.0483,25.0,996.565,18.1917,0.878658,923.647,0.820278,766.05,0.628374,77.427,13.0098,2.0962,0.0,183571,458737,14.762,3.0795e-11,0,75114.2,0,0,0,0,0,0,0,0,0,0,0,0,0,0,0,0,0,1,0,0,0,0,0,0,0,0,1,0,0,0,0,0,0,0,0,0,0
3942,0.0483,25.0,998.265,13.1544,0.635356,669.895,0.565062,516.281,0.291731,68.5422,6.03997,2.69,0.0,119450,0.0,14.299,3.8555e-08,0,128748,0,0,0,0,0,0,0,0,0,0,0,0,0,0,0,0,0,1,0,0,0,0,0,0,0,1,0,0,0,0,0,0,0,0,0,0,0
3942,0.0483,25.0,998.265,16.9046,0.816493,936.718,0.758575,766.362,0.581343,76.0101,12.0361,2.3486,0.0,100000000.0,0.0,14.75,1.4699e-10,0,85581.4,0,0,0,0,0,0,0,0,0,0,0,0,0,0,0,0,0,1,0,0,0,0,0,0,0,1,0,0,0,0,0,0,0,0,0,0,0
3942,0.0483,25.0,998.265,16.0097,0.773267,859.449,0.440108,651.633,0.286789,43.1532,5.93766,2.2025,0.0,2284.7,2007.47,41.168,8.8688e-11,0,174416,0,0,0,0,0,0,0,0,0,0,0,0,0,0,0,0,0,1,0,0,0,0,0,0,0,1,0,0,0,0,0,0,0,0,0,0,0
3942,0.0483,25.0,998.265,16.4963,0.796774,936.575,0.747122,792.314,0.591955,79.3253,12.2558,2.3288,0.0,930469,0.0,0.16125,1.1558e-10,0,64799.4,0,0,0,0,0,0,0,0,0,0,0,0,0,0,0,0,0,1,0,0,0,0,0,0,0,1,0,0,0,0,0,0,0,0,0,0,0
3942,0.0483,25.0,998.265,16.5565,0.799677,876.506,0.729605,690.518,0.503806,71.8776,10.4308,3.993,0.0,,,,1.5286e-07,0,,0,0,0,0,0,0,0,0,0,0,0,0,0,0,0,0,0,1,0,0,0,0,0,0,0,1,0,0,0,0,0,0,0,0,0,0,0
3942,0.0483,25.0,998.265,11.1607,0.539062,42.8551,0.27005,21.4173,0.00578374,25.0362,0.119746,3.3,0.0,,,,0.0,0,,0,0,0,0,0,0,0,0,0,0,0,0,0,0,0,0,0,1,0,0,0,0,0,0,0,1,0,0,0,0,0,0,0,0,0,0,0
3942,0.0483,25.0,998.265,16.4058,0.792398,916.758,0.738955,746.861,0.551897,75.9731,11.4264,2.8253,0.0,,,,2.4939e-09,0,,0,0,0,0,0,0,0,0,0,0,0,0,0,0,0,0,0,1,0,0,0,0,0,0,0,1,0,0,0,0,0,0,0,0,0,0,0
3942,0.0483,25.0,997.325,12.5067,0.604075,897.125,0.563562,745.839,0.420326,77.5609,8.70241,2.007,0.0,2.10808e+06,659152,20.247,1.653e-11,0,102774,0,0,0,0,0,0,0,0,0,0,0,0,0,0,0,0,0,0,0,0,0,0,0,0,0,1,0,0,0,0,0,0,0,0,0,0,0
3942,0.0483,25.0,997.325,12.2056,0.589532,887.87,0.544954,732.571,0.399217,76.2698,8.26536,2.1691,0.0,870504,279806,18.27,6.9382e-11,0,112156,0,0,0,0,0,0,0,0,0,0,0,0,0,0,0,0,0,0,0,0,0,0,0,0,0,1,0,0,0,0,0,0,0,0,0,0,0
3942,0.0483,25.0,996.565,12.4845,0.603002,900.257,0.561382,739.62,0.415209,76.4859,8.59646,2.6325,0.0,1.19785e+06,0.0,0.18245,9.7063e-10,0,105633,0,0,0,0,0,0,0,0,0,0,0,0,0,0,0,0,0,0,0,0,0,0,0,0,0,1,0,0,0,0,0,0,0,0,0,0,0
3942,0.27075,25.0,982.04,17.2478,4.66985,957.289,4.24219,769.461,3.26419,73.0181,12.0561,2.268,0.0,50260.3,14553.9,9.6169,3.3043e-10,0,20928.8,0,0,0,0,0,0,0,0,0,0,0,0,0,0,0,0,0,1,0,0,0,0,0,0,0,0,0,0,0,0,1,0,0,0,0,0,0
3942,0.0483,25.0,982.04,19.144,0.924655,940.816,0.81664,644.268,0.526134,60.4801,10.8931,3.4131,0.0,116132,0.0,140.83,2.0415e-08,0,249684,0,0,0,0,0,0,0,0,0,0,0,0,0,0,0,0,0,1,0,1,0,0,0,0,0,0,0,1,0,0,0,0,0,0,0,0,0
3942,0.0483,25.0,982.04,16.5633,0.800008,938.985,0.716891,756.915,0.542626,72.235,11.2345,2.4261,0.0,100000000.0,30570.8,21.724,2.2256e-10,0,96285.5,0,0,0,0,0,0,0,0,0,0,0,0,0,0,0,0,0,1,0,0,0,0,0,0,0,0,0,1,0,0,0,0,0,0,0,0,0
3942,0.27075,25.0,982.04,17.0272,4.61011,959.689,4.28865,781.665,3.35229,75.7704,12.3815,2.3405,0.0,100000000.0,0.0,6.1679,5.2102e-10,0,20056.7,0,0,0,0,0,0,0,0,0,0,0,0,0,0,0,0,0,1,0,0,0,0,0,0,0,0,0,0,0,0,1,0,0,0,0,0,0
3942,0.10245,25.0,982.04,19.1781,1.9648,945.294,1.65254,758.716,1.25381,67.5066,12.2383,2.9555,0.0,4935.48,4637.79,5.5754,6.7021e-09,0,49730.9,0,0,0,0,0,0,0,0,0,0,0,0,0,0,0,0,0,1,0,1,1,0,0,0,0,0,0,0,0,0,0,0,0,0,0,0,0
3942,0.0483,25.0,975.872,19.0109,0.918227,934.87,0.852397,775.384,0.660935,76.9941,13.684,2.2073,0.0,224152,168523,8.7924,6.2272e-11,0,66837.3,0,0,0,0,0,0,0,0,0,0,0,0,0,0,0,0,0,1,0,1,1,0,0,0,0,0,0,0,1,0,0,0,0,0,0,0,0
3943,0.0483,25.0,996.565,11.9672,0.578017,866.195,0.533849,712.071,0.380138,75.925,7.87036,2.1197,0.0,138282,114304,16.314,7.0083e-11,0,106710,0,0,0,0,0,0,0,0,0,0,0,0,0,0,0,0,0,0,0,0,0,0,0,0,0,0,0,0,0,0,0,0,0,0,0,0,0
3943,0.0483,25.0,996.565,1.70286,0.0822479,886.169,0.0429656,407.887,0.0175251,24.0447,0.362839,3.3001,0.0,8827.3,0.0,13410.0,0.0,0,1.19361e+07,0,0,0,0,0,0,0,0,0,0,0,0,0,0,0,0,0,0,0,0,0,0,0,0,0,0,0,0,0,0,0,0,0,0,0,0,0
3943,0.0483,25.0,996.565,12.2464,0.591499,884.952,0.542851,730.542,0.396576,75.7622,8.21068,2.636,0.0,100191,0.0,0.026134,1.2353e-09,0,100250,0,0,0,0,0,0,0,0,0,0,0,0,0,0,0,0,0,0,0,0,0,0,0,0,0,0,0,0,0,0,0,0,0,0,0,0,0
3943,0.0483,25.0,996.565,11.8797,0.573789,880.443,0.528044,740.096,0.390803,77.3579,8.09117,2.0195,0.0,241496,88152.3,3.2964e-05,2.3656e-11,0,86921.2,0,0,0,0,0,0,0,0,0,0,0,0,0,0,0,0,0,0,0,0,0,0,0,0,0,0,0,0,0,0,0,0,0,0,0,0,0
3943,0.0483,25.0,996.565,12.6094,0.609035,877.681,0.551468,695.408,0.383495,71.7432,7.93985,2.3777,0.0,83634.5,37754.4,53.634,3.2437e-10,0,172062,0,0,0,0,0,0,0,0,0,0,0,0,0,0,0,0,0,1,0,0,0,0,0,0,0,0,0,0,0,0,0,0,0,0,0,0,0
3943,0.0483,25.0,996.565,12.825,0.619449,879.185,0.562294,727.095,0.408841,75.0704,8.46462,2.2969,0.0,50027.6,78351.5,9.7175,2.0083e-10,0,107958,0,0,0,0,0,0,0,0,0,0,0,0,0,0,0,0,0,1,0,0,0,0,0,0,0,0,0,0,0,0,0,0,0,0,0,0,0
3943,0.0483,25.0,996.565,0.0490652,0.00236985,21.8276,0.00115809,10.4443,1.20955e-05,23.3828,0.000250424,3.3,0.0,3501.93,7744.13,2641.9,0.0,0,1.08022e+07,0,0,0,0,0,0,0,0,0,0,0,0,0,0,0,0,0,1,0,0,0,0,0,0,0,0,0,0,0,0,0,0,0,0,0,0,0
3943,0.0483,25.0,996.565,12.099,0.584383,875.955,0.535898,724.143,0.388067,75.8101,8.03451,2.1576,0.0,106775,83549.2,8.0717,7.7564e-11,0,98831.5,0,0,0,0,0,0,0,0,0,0,0,0,0,0,0,0,0,0,0,0,0,0,0,0,0,0,0,0,0,0,0,0,0,0,0,0,0
3943,0.0483,25.0,996.565,4.54311,0.219432,883.443,0.107912,438.659,0.0473367,24.4185,0.980056,3.0784,0.0,3784.96,4023.98,1.1243e-06,0.0,0,4.15038e+06,0,0,0,0,0,0,0,0,0,0,0,0,0,0,0,0,0,0,0,0,0,0,0,0,0,0,0,0,0,0,0,0,0,0,0,0,0
3943,0.0483,25.0,996.565,11.9188,0.575678,881.444,0.530572,740.172,0.392715,77.3932,8.13074,2.4058,0.0,112773,0.0,4.9434e-05,3.5502e-10,0,89187.8,0,0,0,0,0,0,0,0,0,0,0,0,0,0,0,0,0,0,0,0,0,0,0,0,0,0,0,0,0,0,0,0,0,0,0,0,0
3943,0.0483,25.0,996.565,12.3399,0.596018,883.725,0.5483,737.371,0.404301,76.7587,8.37062,2.2776,0.0,74578.4,180721,6.6282e-06,1.578e-10,0,95078.4,0,0,0,0,0,0,0,0,0,0,0,0,0,0,0,0,0,0,0,0,0,0,0,0,0,0,0,0,0,0,0,0,0,0,0,0,0
3943,0.0483,25.0,996.565,12.7463,0.615646,885.528,0.560849,751.294,0.421362,77.2899,8.72386,1.7614,0.0,58913.5,38403.9,7.7076,1.8458e-12,0,76456.6,0,0,0,0,0,0,0,0,0,0,0,0,0,0,0,0,0,1,0,0,0,0,0,0,0,0,0,0,0,0,0,0,0,0,0,0,0
3943,0.0483,25.0,996.565,12.746,0.615631,887.43,0.559635,712.885,0.398956,73.0248,8.25995,2.4249,0.0,72632.6,56300,37.801,3.7707e-10,0,149775,0,0,0,0,0,0,0,0,0,0,0,0,0,0,0,0,0,1,0,0,0,0,0,0,0,0,0,0,0,0,0,0,0,0,0,0,0
3943,0.0483,25.0,996.565,12.497,0.603604,882.73,0.553438,750.699,0.415466,77.975,8.60177,1.8215,0.0,87965.6,48792.4,0.73382,3.6299e-12,0,74393.4,0,0,0,0,0,0,0,0,0,0,0,0,0,0,0,0,0,1,0,0,0,0,0,0,0,0,0,0,0,0,0,0,0,0,0,0,0
3943,0.0483,24.85,1001.18,12.7287,0.614796,860.739,0.554562,702.064,0.389338,73.5741,8.06084,2.9852,0.0,122016,0.0,1.4035e-06,8.0434e-09,0,94976.9,0,0,0,0,0,0,0,0,0,0,0,0,0,0,0,0,0,0,1,0,0,0,0,0,0,0,0,0,0,0,0,0,0,0,0,0,0
3943,0.0483,24.83,1001.18,12.7474,0.615699,841.998,0.569441,686.59,0.390973,75.4167,8.09468,2.1751,0.0,104675,87343.9,16.57,1.661e-10,0,111797,0,0,0,0,0,0,0,0,0,0,0,0,0,0,0,0,0,0,1,0,0,0,0,0,0,0,0,0,0,0,0,0,0,0,0,0,0
3944,0.0483,25.0,998.265,13.4542,0.649839,881.548,0.601723,722.828,0.434942,75.9242,9.00502,2.142,0.0,190445,269020,23.705,7.1191e-11,0,103688,0,0,0,0,0,0,0,0,0,0,0,0,0,0,0,0,0,1,0,0,0,0,0,0,0,0,0,0,0,0,0,0,0,0,0,1,0
3944,0.0483,25.0,998.265,12.9245,0.624255,887.4,0.571564,752.895,0.430328,77.6816,8.90948,1.8677,0.0,694098,47524,7.8734,5.3138e-12,0,88084.4,0,0,0,0,0,0,0,0,0,0,0,0,0,0,0,0,0,1,0,0,0,0,0,0,0,0,0,0,0,0,0,0,0,0,0,1,0
3944,0.0483,25.0,998.265,13.0617,0.630882,882.475,0.587431,749.881,0.440503,79.1223,9.12015,1.7978,0.0,235345,127890,5.2444,3.0537e-12,0,73564.6,0,0,0,0,0,0,0,0,0,0,0,0,0,0,0,0,0,1,0,0,0,0,0,0,0,0,0,0,0,0,0,0,0,0,0,1,0
3944,0.0483,25.0,998.265,13.4542,0.649839,881.548,0.601723,722.828,0.434942,75.9242,9.00502,2.142,0.0,190445,269020,23.705,7.1191e-11,0,103688,0,0,0,0,0,0,0,0,0,0,0,0,0,0,0,0,0,1,0,0,0,0,0,0,0,0,0,0,0,0,0,0,0,0,0,1,0
3944,0.0483,25.0,998.265,12.9245,0.624255,887.4,0.571564,752.895,0.430328,77.6816,8.90948,1.8677,0.0,694098,47524,7.8734,5.3138e-12,0,88084.4,0,0,0,0,0,0,0,0,0,0,0,0,0,0,0,0,0,1,0,0,0,0,0,0,0,0,0,0,0,0,0,0,0,0,0,1,0
3944,0.0483,25.0,998.265,13.0617,0.630882,882.475,0.587431,749.881,0.440503,79.1223,9.12015,1.7978,0.0,235345,127890,5.2444,3.0537e-12,0,73564.6,0,0,0,0,0,0,0,0,0,0,0,0,0,0,0,0,0,1,0,0,0,0,0,0,0,0,0,0,0,0,0,0,0,0,0,1,0
3944,0.0483,25.0,998.265,13.4542,0.649839,881.548,0.601723,722.828,0.434942,75.9242,9.00502,2.142,0.0,,,,7.1191e-11,0,,0,0,0,0,0,0,0,0,0,0,0,0,0,0,0,0,0,1,0,0,0,0,0,0,0,0,0,0,0,0,0,0,0,0,0,1,0
3944,0.0483,25.0,998.265,12.9245,0.624255,887.4,0.571564,752.895,0.430328,77.6816,8.90948,1.8677,0.0,,,,5.3138e-12,0,,0,0,0,0,0,0,0,0,0,0,0,0,0,0,0,0,0,1,0,0,0,0,0,0,0,0,0,0,0,0,0,0,0,0,0,1,0
3944,0.0483,25.0,998.265,13.0617,0.630882,882.475,0.587431,749.881,0.440503,79.1223,9.12015,1.7978,0.0,,,,3.0537e-12,0,,0,0,0,0,0,0,0,0,0,0,0,0,0,0,0,0,0,1,0,0,0,0,0,0,0,0,0,0,0,0,0,0,0,0,0,1,0
3944,0.0483,25.0,997.325,13.5018,0.652136,877.066,0.601547,713.501,0.429204,75.04,8.88621,2.3197,0.0,283904,406851,18.497,2.6116e-10,0,106750,0,0,0,0,0,0,0,0,0,0,0,0,0,0,0,0,0,0,0,0,0,0,0,0,0,0,0,0,0,0,0,0,0,0,0,1,0
3944,0.0483,25.0,997.325,12.81,0.618724,877.462,0.571078,721.708,0.412152,75.9157,8.53316,2.0332,0.0,190233,141387,29.212,3.0644e-11,0,111950,0,0,0,0,0,0,0,0,0,0,0,0,0,0,0,0,0,0,0,0,0,0,0,0,0,0,0,0,0,0,0,0,0,0,0,1,0
3944,0.0483,25.0,997.325,12.93,0.624517,878.035,0.579266,729.06,0.42232,77.0167,8.74368,2.0535,0.0,308076,199231,13.039,3.6081e-11,0,96636.1,0,0,0,0,0,0,0,0,0,0,0,0,0,0,0,0,0,0,0,0,0,0,0,0,0,0,0,0,0,0,0,0,0,0,0,1,0
3944,0.10245,24.985,991.879,13.4858,1.38162,886.557,1.27868,730.031,0.933473,76.209,9.11149,2.6714,0.0,178655,0.0,0.010371,3.0896e-09,0,45048.8,0,0,0,0,0,0,0,0,0,0,0,0,0,0,0,0,0,0,0,0,0,0,0,0,0,0,0,0,0,0,0,0,0,0,0,0,0
3945,0.0483,25.0,998.265,10.9582,0.529282,868.346,0.348254,679.869,0.236767,51.5159,4.902,3.9767,0.0,9348.43,6659.12,0.068494,8.6207e-08,0,141509,0,0,0,0,0,0,0,0,0,0,0,0,0,0,0,0,0,1,0,0,0,0,0,0,0,0,0,0,0,0,0,0,0,0,0,0,0
3945,0.0483,25.0,998.265,8.41267,0.406332,837.372,0.221537,104.729,0.0232014,6.81891,0.480361,3.3,0.0,631.672,0.0,3339.6,0.0,0,1.94524e+07,0,0,0,0,0,0,0,0,0,0,0,0,0,0,0,0,0,1,0,0,0,0,0,0,0,0,0,0,0,0,0,0,0,0,0,0,0
3945,0.0483,25.0,998.265,11.1965,0.540789,743.469,0.455101,563.528,0.256462,63.787,5.30977,3.5998,0.0,106467,55660.7,3.668,1.6822e-07,0,177073,0,0,0,0,0,0,0,0,0,0,0,0,0,0,0,0,0,1,0,0,0,0,0,0,0,0,0,0,0,0,0,0,0,0,0,0,0
3945,0.0483,25.0,998.265,11.1328,0.537715,902.498,0.48827,764.603,0.373333,76.9303,7.72945,1.8761,0.0,165270,57607,9.5783e-10,3.8721e-12,0,80728.5,0,0,0,0,0,0,0,0,0,0,0,0,0,0,0,0,0,1,0,0,0,0,0,0,0,0,0,0,0,0,0,0,0,0,0,0,0
3945,0.0483,25.0,998.265,11.3616,0.548765,264.463,0.358882,164.875,0.0591706,40.7713,1.22506,2.9424,0.0,1600.7,2405.06,28.856,1.4062e-05,0,190733,0,0,0,0,0,0,0,0,0,0,0,0,0,0,0,0,0,1,0,0,0,0,0,0,0,0,0,0,0,0,0,0,0,0,0,0,0
3945,0.0483,25.0,998.265,9.50778,0.459226,24.594,0.229454,12.3127,0.00282521,25.0147,0.0584929,3.3,0.0,52.8265,0.0,62.972,0.0,0,53413,0,0,0,0,0,0,0,0,0,0,0,0,0,0,0,0,0,1,0,0,0,0,0,0,0,0,0,0,0,0,0,0,0,0,0,0,0
3945,0.0483,25.0,998.265,11.1441,0.538262,897.403,0.496086,764.15,0.379084,78.4791,7.84853,2.1619,0.0,,,,5.1482e-11,0,,0,0,0,0,0,0,0,0,0,0,0,0,0,0,0,0,0,1,0,0,0,0,0,0,0,0,0,0,0,0,0,0,0,0,0,0,0
3945,0.0483,25.0,998.265,11.365,0.548932,897.875,0.507227,759.402,0.385189,78.152,7.97494,1.9122,0.0,,,,6.1246e-12,0,,0,0,0,0,0,0,0,0,0,0,0,0,0,0,0,0,0,1,0,0,0,0,0,0,0,0,0,0,0,0,0,0,0,0,0,0,0
3945,0.0483,25.0,998.265,0.958146,0.0462784,22.6149,0.0232178,15.3237,0.000355783,33.9948,0.00736611,3.3,0.0,,,,0.0,0,,0,0,0,0,0,0,0,0,0,0,0,0,0,0,0,0,0,1,0,0,0,0,0,0,0,0,0,0,0,0,0,0,0,0,0,0,0
3945,0.0483,25.0,996.516,9.10688,0.439862,850.717,0.405418,706.277,0.286337,76.5201,5.9283,2.4467,0.0,158154,0.0,0.36625,5.7493e-10,0,124967,0,0,0,0,0,0,0,0,0,0,0,0,0,0,0,0,0,0,0,0,0,0,0,0,0,0,0,0,0,0,0,0,0,0,0,0,0
3945,0.0483,25.0,996.516,9.23616,0.446106,873.961,0.410954,725.629,0.2982,76.4852,6.17392,2.5472,0.0,97710.5,0.0,1.0337e-10,6.9706e-10,0,127323,0,0,0,0,0,0,0,0,0,0,0,0,0,0,0,0,0,0,0,0,0,0,0,0,0,0,0,0,0,0,0,0,0,0,0,0,0
3945,0.0483,25.0,996.516,6.6083,0.319181,19.6303,0.162633,9.6437,0.00156839,25.0317,0.0324718,3.3,0.0,62.5984,0.0,67.574,0.0,0,61352.8,0,0,0,0,0,0,0,0,0,0,0,0,0,0,0,0,0,0,0,0,0,0,0,0,0,0,0,0,0,0,0,0,0,0,0,0,0
3945,0.0483,25.605,1004.02,9.02826,0.436065,869.233,0.401332,722.932,0.290135,76.5444,6.00695,2.084,0.0,148052,135894,8.1404,3.8924e-11,0,129570,0,0,0,0,0,0,0,0,0,0,0,0,0,0,0,0,0,0,0,0,0,0,0,0,0,0,0,0,0,0,0,0,0,0,0,0,0
3945,0.27075,25.775,1004.02,9.32685,2.52525,891.651,2.33616,754.371,1.76233,78.2689,6.50908,2.0736,0.0,36764.1,308090,0.7692,1.3556e-10,0,20403.2,0,0,0,0,0,0,0,0,0,0,0,0,0,0,0,0,0,0,0,0,0,0,0,0,0,0,0,0,0,0,1,0,0,0,0,0,0
3945,0.0483,25.69,1004.02,8.72222,0.421283,863.336,0.388869,724.716,0.28182,77.4849,5.83477,1.9983,0.0,118986,160226,2.3837e-09,2.0505e-11,0,112503,0,0,0,0,0,0,0,0,0,0,0,0,0,0,0,0,0,0,0,0,0,0,0,0,0,0,0,0,0,0,0,0,0,0,0,0,0
3946,0.0483,25.0,1000.26,11.2912,0.545367,847.194,0.48816,654.248,0.319378,69.1247,6.61237,3.5087,0.0,128938,0.0,0.011678,4.4864e-08,0,153990,0,0,0,0,0,0,0,0,0,0,0,0,0,0,0,0,0,1,0,0,0,0,0,0,0,0,0,0,0,0,0,0,0,0,0,0,0
3946,0.0483,25.0,1000.26,11.1119,0.536704,872.246,0.483971,708.615,0.342949,73.2582,7.1004,2.8614,0.0,157663,0.0,0.00082419,3.706e-09,0,121001,0,0,0,0,0,0,0,0,0,0,0,0,0,0,0,0,0,1,0,0,0,0,0,0,0,0,0,0,0,0,0,0,0,0,0,0,0
3946,0.0483,25.0,1000.26,11.1432,0.538215,866.862,0.496552,715.511,0.355288,76.1509,7.35587,2.3718,0.0,118860,0.0,4.5958e-08,3.4569e-10,0,112921,0,0,0,0,0,0,0,0,0,0,0,0,0,0,0,0,0,1,0,0,0,0,0,0,0,0,0,0,0,0,0,0,0,0,0,0,0
3946,0.0483,25.0,1000.26,11.4193,0.551551,759.223,0.464516,551.194,0.256039,61.1436,5.30101,3.8971,0.0,22533.5,63095.5,45.449,2.7309e-07,0,233688,0,0,0,0,0,0,0,0,0,0,0,0,0,0,0,0,0,1,0,0,0,0,0,0,0,0,0,0,0,0,0,0,0,0,0,0,0
3946,0.0483,25.0,1000.26,11.442,0.552647,692.228,0.46311,429.751,0.199022,52.0241,4.12054,3.3112,0.0,,,,1.628e-07,0,,0,0,0,0,0,0,0,0,0,0,0,0,0,0,0,0,0,1,0,0,0,0,0,0,0,0,0,0,0,0,0,0,0,0,0,0,0
3946,0.0483,25.0,1000.26,11.2586,0.543791,863.654,0.49126,681.875,0.334978,71.3254,6.93536,3.2568,0.0,,,,1.7597e-08,0,,0,0,0,0,0,0,0,0,0,0,0,0,0,0,0,0,0,1,0,0,0,0,0,0,0,0,0,0,0,0,0,0,0,0,0,0,0
3946,0.0483,25.0,1000.05,11.9546,0.577409,820.876,0.526872,645.15,0.339911,71.714,7.0375,3.0921,0.0,150961,0.0,11.384,1.8285e-08,0,142242,0,0,0,0,0,0,0,0,0,0,0,0,0,0,0,0,0,0,0,0,0,0,0,0,0,0,0,0,0,0,0,0,0,0,0,0,0
3946,0.0483,25.0,1000.05,12.0616,0.582573,858.178,0.529636,692.087,0.366554,73.3179,7.58911,2.919,0.0,1.56092e+06,0.0,0.003659,6.1603e-09,0,115409,0,0,0,0,0,0,0,0,0,0,0,0,0,0,0,0,0,0,0,0,0,0,0,0,0,0,0,0,0,0,0,0,0,0,0,0,0
3950,0.0483,25.0,1000.26,12.3585,0.596917,872.401,0.538305,751.47,0.40452,77.6801,8.37515,1.7843,0.0,39575,36495,2.2417,2.9666e-12,0,80801.1,0,0,0,0,0,0,0,0,0,0,0,0,0,0,0,0,0,1,0,0,0,0,0,1,0,0,0,0,0,0,0,0,0,0,0,0,0
3950,0.0483,25.0,1000.26,12.7559,0.61611,845.973,0.519852,666.757,0.346615,66.5016,7.17628,2.8208,0.0,35096.7,17604.4,29.659,4.7817e-09,0,154051,0,0,0,0,0,0,0,0,0,0,0,0,0,0,0,0,0,1,0,0,0,0,0,1,0,0,0,0,0,0,0,0,0,0,0,0,0
3950,0.0483,25.0,1000.26,12.147,0.586698,709.008,0.53684,583.692,0.31335,75.3292,6.48757,1.746,0.0,49132.3,58099,24.042,7.59e-11,0,107103,0,0,0,0,0,0,0,0,0,0,0,0,0,0,0,0,0,1,0,0,0,0,0,1,0,0,0,0,0,0,0,0,0,0,0,0,0
3950,0.0483,25.0,1000.26,12.3585,0.596917,872.401,0.538305,751.47,0.40452,77.6801,8.37515,1.7843,0.0,39575,36495,2.2417,2.9666e-12,0,80801.1,0,0,0,0,0,0,0,0,0,0,0,0,0,0,0,0,0,1,0,0,0,0,0,1,0,0,0,0,0,0,0,0,0,0,0,0,0
3950,0.0483,25.0,1000.26,12.7559,0.61611,845.973,0.519852,666.757,0.346615,66.5016,7.17628,2.8208,0.0,35096.7,17604.4,29.659,4.7817e-09,0,154051,0,0,0,0,0,0,0,0,0,0,0,0,0,0,0,0,0,1,0,0,0,0,0,1,0,0,0,0,0,0,0,0,0,0,0,0,0
3950,0.0483,25.0,1000.26,12.147,0.586698,709.008,0.53684,583.692,0.31335,75.3292,6.48757,1.746,0.0,49132.3,58099,24.042,7.59e-11,0,107103,0,0,0,0,0,0,0,0,0,0,0,0,0,0,0,0,0,1,0,0,0,0,0,1,0,0,0,0,0,0,0,0,0,0,0,0,0
3950,0.0483,25.0,1000.26,12.3585,0.596917,872.401,0.538305,751.47,0.40452,77.6801,8.37515,1.7843,0.0,,,,2.9666e-12,0,,0,0,0,0,0,0,0,0,0,0,0,0,0,0,0,0,0,1,0,0,0,0,0,1,0,0,0,0,0,0,0,0,0,0,0,0,0
3950,0.0483,25.0,1000.26,12.7559,0.61611,845.973,0.519852,666.757,0.346615,66.5016,7.17628,2.8208,0.0,,,,4.7817e-09,0,,0,0,0,0,0,0,0,0,0,0,0,0,0,0,0,0,0,1,0,0,0,0,0,1,0,0,0,0,0,0,0,0,0,0,0,0,0
3950,0.0483,25.0,1000.26,12.147,0.586698,709.008,0.53684,583.692,0.31335,75.3292,6.48757,1.746,0.0,,,,7.59e-11,0,,0,0,0,0,0,0,0,0,0,0,0,0,0,0,0,0,0,1,0,0,0,0,0,1,0,0,0,0,0,0,0,0,0,0,0,0,0
3950,0.0483,25.0,997.325,11.6371,0.562073,865.358,0.509461,734.84,0.374372,76.9688,7.75097,2.1427,0.0,60449,134895,1.6253,7.8707e-11,0,87029.1,0,0,0,0,0,0,0,0,0,0,0,0,0,0,0,0,0,0,0,0,0,0,0,1,0,0,0,0,0,0,0,0,0,0,0,0,0
3950,0.0483,25.0,997.325,11.6134,0.560926,840.96,0.463709,650.58,0.301679,63.9535,6.24595,3.1829,0.0,33974,21211.6,57.294,1.7527e-08,0,201021,0,0,0,0,0,0,0,0,0,0,0,0,0,0,0,0,0,0,0,0,0,0,0,1,0,0,0,0,0,0,0,0,0,0,0,0,0
3950,0.0483,25.0,997.325,11.2263,0.542229,853.316,0.439858,298.482,0.13129,28.3751,2.71821,4.1022,0.0,24850.7,0.0,1622.3,0.0,0,3.98362e+06,0,0,0,0,0,0,0,0,0,0,0,0,0,0,0,0,0,0,0,0,0,0,0,1,0,0,0,0,0,0,0,0,0,0,0,0,0
3950,0.0483,24.81,1001.18,12.2791,0.593083,848.546,0.53768,717.189,0.385618,76.6243,7.9838,1.8126,0.0,52356.6,34963.8,3.8211,6.7395e-12,0,78116.9,0,0,0,0,0,0,0,0,0,0,0,0,0,0,0,0,0,0,1,0,0,0,0,0,0,0,0,0,0,0,0,0,0,0,0,0,0
3950,0.0483,24.84,1001.18,12.7653,0.616565,584.87,0.459165,393.196,0.180542,50.0657,3.73793,5.0,0.0,8354.13,15707.7,16.262,6.1516e-06,0,227559,0,0,0,0,0,0,0,0,0,0,0,0,0,0,0,0,0,0,1,0,0,0,0,0,0,0,0,0,0,0,0,0,0,0,0,0,0
3950,0.0483,24.885,1001.18,11.928,0.576124,820.903,0.510387,667.798,0.340835,72.067,7.05664,2.7977,0.0,39113.7,0.0,1.3256e-06,6.121e-09,0,95701.2,0,0,0,0,0,0,0,0,0,0,0,0,0,0,0,0,0,0,1,0,0,0,0,0,0,0,0,0,0,0,0,0,0,0,0,0,0
3950,0.0483,26.185,999.735,12.1758,0.588089,872.602,0.529366,756.706,0.400575,78.0593,8.29347,1.5192,0.0,,,,1.1485e-13,0,,0,0,0,0,0,0,0,0,0,0,0,0,0,0,0,0,0,0,0,0,0,0,1,0,0,0,0,0,0,0,0,0,0,0,0,0,0
3950,0.0483,26.435,999.735,12.1843,0.588501,873.1,0.528966,756.473,0.400148,77.8771,8.28465,1.5723,0.0,,,,2.4285e-13,0,,0,0,0,0,0,0,0,0,0,0,0,0,0,0,0,0,0,0,0,0,0,0,1,0,0,0,0,0,0,0,0,0,0,0,0,0,0
3950,0.0483,26.335,999.735,12.1778,0.588186,873.44,0.52994,758.509,0.401965,78.2419,8.32225,1.4741,0.0,,,,5.7806e-14,0,,0,0,0,0,0,0,0,0,0,0,0,0,0,0,0,0,0,0,0,0,0,0,1,0,0,0,0,0,0,0,0,0,0,0,0,0,0
3950,0.0483,26.305,999.735,12.1729,0.58795,873.458,0.529054,759.764,0.401956,78.2701,8.32207,1.7754,0.0,,,,2.8476e-12,0,,0,0,0,0,0,0,0,0,0,0,0,0,0,0,0,0,0,0,0,0,0,0,1,0,0,0,0,0,0,0,0,0,0,0,0,0,0
3950,0.0483,26.305,999.735,12.1745,0.588029,871.304,0.527978,752.647,0.397381,77.5601,8.22735,1.5409,0.0,,,,1.6593e-13,0,,0,0,0,0,0,0,0,0,0,0,0,0,0,0,0,0,0,0,0,0,0,0,1,0,0,0,0,0,0,0,0,0,0,0,0,0,0
3950,0.0483,26.47,999.735,3.22372,0.155706,873.119,0.0710482,431.664,0.0306689,22.559,0.634967,3.3,0.0,,,,0.0,0,,0,0,0,0,0,0,0,0,0,0,0,0,0,0,0,0,0,0,0,0,0,0,1,0,0,0,0,0,0,0,0,0,0,0,0,0,0
3950,0.0483,26.365,999.735,12.1818,0.588382,871.819,0.527193,750.724,0.395776,77.1549,8.19413,1.6568,0.0,,,,7.5017e-13,0,,0,0,0,0,0,0,0,0,0,0,0,0,0,0,0,0,0,0,0,0,0,0,1,0,0,0,0,0,0,0,0,0,0,0,0,0,0
3950,0.0483,26.555,999.735,12.3003,0.594106,872.396,0.533304,754.629,0.402447,77.6482,8.33223,1.5699,0.0,,,,2.4621e-13,0,,0,0,0,0,0,0,0,0,0,0,0,0,0,0,0,0,0,0,0,0,0,0,1,0,0,0,0,0,0,0,0,0,0,0,0,0,0
3950,0.0483,26.225,999.735,12.1284,0.585802,870.444,0.526998,752.642,0.396641,77.7867,8.21203,1.5582,0.0,,,,2.1296e-13,0,,0,0,0,0,0,0,0,0,0,0,0,0,0,0,0,0,0,0,0,0,0,0,1,0,0,0,0,0,0,0,0,0,0,0,0,0,0
3950,0.0483,26.4,999.735,11.9981,0.579509,871.135,0.521311,751.16,0.391588,77.5682,8.10741,1.9237,0.0,,,,1.2438e-11,0,,0,0,0,0,0,0,0,0,0,0,0,0,0,0,0,0,0,0,0,0,0,0,1,0,0,0,0,0,0,0,0,0,0,0,0,0,0
3950,0.0483,26.425,999.735,12.2543,0.591882,866.554,0.529804,743.7,0.394016,76.8214,8.15767,1.9744,0.0,,,,2.3511e-11,0,,0,0,0,0,0,0,0,0,0,0,0,0,0,0,0,0,0,0,0,0,0,0,1,0,0,0,0,0,0,0,0,0,0,0,0,0,0
3950,0.0483,26.295,999.735,12.1778,0.588187,872.87,0.529967,757.503,0.401451,78.193,8.31162,1.5598,0.0,43620.5,28544.5,2.0548e-07,2.0424e-13,0,65850.8,0,0,0,0,0,0,0,0,0,0,0,0,0,0,0,0,0,0,0,0,0,0,1,0,0,0,0,0,0,0,0,0,0,0,0,0,0
3950,0.0483,26.41,999.735,12.1766,0.588132,873.007,0.528334,758.31,0.400641,78.0302,8.29484,1.5099,0.0,36871.3,26877.4,2.78,1.0045e-13,0,66098,0,0,0,0,0,0,0,0,0,0,0,0,0,0,0,0,0,0,0,0,0,0,1,0,0,0,0,0,0,0,0,0,0,0,0,0,0
3950,0.0483,26.2,999.735,12.1718,0.587898,873.132,0.528822,758.031,0.400863,78.0933,8.29944,1.4823,0.0,43411.6,26990.6,2.6287,6.5261e-14,0,65305.1,0,0,0,0,0,0,0,0,0,0,0,0,0,0,0,0,0,0,0,0,0,0,1,0,0,0,0,0,0,0,0,0,0,0,0,0,0
3950,0.0483,26.405,999.735,12.1874,0.588653,873.678,0.529343,758.571,0.401544,78.0769,8.31354,1.7207,0.0,48054.4,49833.1,0.0089648,1.6076e-12,0,65349.5,0,0,0,0,0,0,0,0,0,0,0,0,0,0,0,0,0,0,0,0,0,0,1,0,0,0,0,0,0,0,0,0,0,0,0,0,0
3950,0.0483,26.45,999.735,12.1907,0.58881,871.51,0.529175,751.052,0.397438,77.4501,8.22853,1.5239,0.0,42361.9,26634.7,4.8999,1.3107e-13,0,66000.7,0,0,0,0,0,0,0,0,0,0,0,0,0,0,0,0,0,0,0,0,0,0,1,0,0,0,0,0,0,0,0,0,0,0,0,0,0
3950,0.0483,26.15,999.735,12.0559,0.582301,871.883,0.515106,648.903,0.334254,65.8372,6.92038,1.9573,0.0,43914,27717.7,190.9,1.7313e-11,0,300783,0,0,0,0,0,0,0,0,0,0,0,0,0,0,0,0,0,0,0,0,0,0,1,0,0,0,0,0,0,0,0,0,0,0,0,0,0
3950,0.0483,26.41,999.735,12.1911,0.588831,871.994,0.5282,750.405,0.396364,77.1952,8.20629,1.8017,0.0,50375.6,36043.8,1.4993,3.8943e-12,0,75417,0,0,0,0,0,0,0,0,0,0,0,0,0,0,0,0,0,0,0,0,0,0,1,0,0,0,0,0,0,0,0,0,0,0,0,0,0
3950,0.0483,26.45,999.735,12.2928,0.593741,872.171,0.533752,754.007,0.402453,77.717,8.33235,1.7573,0.0,42553.9,35142,8.4474e-05,2.3938e-12,0,64964.4,0,0,0,0,0,0,0,0,0,0,0,0,0,0,0,0,0,0,0,0,0,0,1,0,0,0,0,0,0,0,0,0,0,0,0,0,0
3950,0.0483,26.425,999.735,12.1537,0.587023,870.72,0.527529,753.079,0.397271,77.7236,8.22507,1.5237,0.0,39114.8,27002.9,3.455,1.3208e-13,0,63595.9,0,0,0,0,0,0,0,0,0,0,0,0,0,0,0,0,0,0,0,0,0,0,1,0,0,0,0,0,0,0,0,0,0,0,0,0,0
3950,0.0483,26.475,999.735,11.9959,0.5794,871.287,0.519899,752.879,0.391421,77.5362,8.10396,1.5856,0.0,49367.2,27873.8,2.8981,3.0352e-13,0,67626.2,0,0,0,0,0,0,0,0,0,0,0,0,0,0,0,0,0,0,0,0,0,0,1,0,0,0,0,0,0,0,0,0,0,0,0,0,0
3951,0.0483,25.0,1000.26,12.3943,0.598643,879.034,0.48178,729.773,0.35159,66.8133,7.2793,2.8852,0.0,69431.2,15911.9,1.4625e-06,3.8314e-09,0,112178,0,0,0,0,0,0,0,0,0,0,0,0,0,0,0,0,0,1,0,0,0,0,0,0,0,0,0,0,0,0,0,0,0,0,0,0,0
3951,0.0483,25.0,1000.26,11.7998,0.56993,880.878,0.522547,767.011,0.400799,79.8344,8.29813,1.709,0.0,61446.1,138908,0.031696,1.0752e-12,0,64093.9,0,0,0,0,0,0,0,0,0,0,0,0,0,0,0,0,0,1,0,0,0,0,0,0,0,0,0,0,0,0,0,0,0,0,0,0,0
3951,0.0483,25.0,1000.26,11.74,0.567041,799.927,0.491736,657.769,0.323449,71.3085,6.69666,2.3149,0.0,67354.8,25765.9,2.5067,7.5973e-10,0,108605,0,0,0,0,0,0,0,0,0,0,0,0,0,0,0,0,0,1,0,0,0,0,0,0,0,0,0,0,0,0,0,0,0,0,0,0,0
3951,0.0483,25.0,1000.26,12.2243,0.590435,884.374,0.540725,748.125,0.40453,77.4715,8.37536,1.7551,0.0,63603.8,43550.2,17.654,1.7196e-12,0,97860.4,0,0,0,0,0,0,0,0,0,0,0,0,0,0,0,0,0,1,0,0,0,0,0,0,0,0,0,0,0,0,0,0,0,0,0,0,0
3951,0.0483,25.0,1000.26,11.6887,0.564564,765.638,0.479191,532.029,0.254943,58.9803,5.27833,4.1497,0.0,52304.8,0.0,93.211,4.3264e-07,0,293384,0,0,0,0,0,0,0,0,0,0,0,0,0,0,0,0,0,1,0,0,0,0,0,0,0,0,0,0,0,0,0,0,0,0,0,0,0
3951,0.0483,25.0,1000.26,11.7279,0.56646,847.155,0.5118,692.042,0.354187,73.8076,7.33307,2.3281,0.0,61305.9,52386.2,9.4354e-06,3.8661e-10,0,104751,0,0,0,0,0,0,0,0,0,0,0,0,0,0,0,0,0,1,0,0,0,0,0,0,0,0,0,0,0,0,0,0,0,0,0,0,0
3951,0.0483,25.0,1000.26,12.1108,0.584949,512.613,0.474229,366.134,0.173631,57.9055,3.59485,3.1162,0.0,,,,9.4894e-07,0,,0,0,0,0,0,0,0,0,0,0,0,0,0,0,0,0,0,1,0,0,0,0,0,0,0,0,0,0,0,0,0,0,0,0,0,0,0
3951,0.0483,25.0,1000.26,11.6291,0.561686,451.835,0.293913,246.714,0.0725123,28.5718,1.50129,3.993,0.0,,,,1.5692e-06,0,,0,0,0,0,0,0,0,0,0,0,0,0,0,0,0,0,0,1,0,0,0,0,0,0,0,0,0,0,0,0,0,0,0,0,0,0,0
3951,0.0483,25.0,1000.26,11.8274,0.571266,711.959,0.493224,562.25,0.277315,68.1836,5.74151,2.8321,0.0,,,,3.1241e-08,0,,0,0,0,0,0,0,0,0,0,0,0,0,0,0,0,0,0,1,0,0,0,0,0,0,0,0,0,0,0,0,0,0,0,0,0,0,0
3951,0.0483,25.0,1000.05,11.63,0.561728,719.633,0.501902,562.631,0.282385,69.8562,5.84649,2.4213,0.0,58667.5,104737,26.355,5.1993e-09,0,134934,0,0,0,0,0,0,0,0,0,0,0,0,0,0,0,0,0,0,0,0,0,0,0,0,1,0,0,0,0,0,0,0,0,0,0,0,0
3951,0.0483,25.0,1000.05,11.1347,0.537805,805.801,0.448967,616.289,0.276694,63.8479,5.72864,4.2479,0.0,62757,0.0,2.383e-07,3.2436e-07,0,178953,0,0,0,0,0,0,0,0,0,0,0,0,0,0,0,0,0,0,0,0,0,0,0,0,1,0,0,0,0,0,0,0,0,0,0,0,0
3951,0.0483,25.0,1000.05,11.3652,0.548937,734.047,0.504102,597.688,0.301296,74.7733,6.23801,2.1324,0.0,62610.1,322851,8.0735,8.0398e-10,0,111873,0,0,0,0,0,0,0,0,0,0,0,0,0,0,0,0,0,0,0,0,0,0,0,0,1,0,0,0,0,0,0,0,0,0,0,0,0
3951,0.0483,25.145,997.225,11.6768,0.563987,860.773,0.517325,719.295,0.372109,76.6501,7.70412,2.3303,0.0,106042,0.0,1.9032,3.1448e-10,0,99032.5,0,0,0,0,0,0,0,0,0,0,0,0,0,0,0,0,0,0,1,0,0,0,0,0,0,0,0,0,0,0,0,0,0,0,0,0,0
3951,0.0483,25.155,997.225,11.6139,0.560953,754.619,0.468944,596.566,0.279756,66.0883,5.79205,2.7832,0.0,54103.5,17963.3,2.0609e-13,1.3492e-08,0,130836,0,0,0,0,0,0,0,0,0,0,0,0,0,0,0,0,0,0,1,0,0,0,0,0,0,0,0,0,0,0,0,0,0,0,0,0,0
3952,0.0483,25.0,999.866,12.9926,0.627544,627.311,0.511338,460.982,0.235718,59.8777,4.88028,3.3549,0.0,15516.3,16577.2,11.696,4.0291e-07,0,159439,0,0,0,0,0,0,0,0,0,0,0,0,0,0,0,0,0,1,0,0,0,0,0,0,0,0,0,0,0,0,0,0,1,0,1,0,0
3952,0.0483,25.0,999.866,11.7147,0.565822,87.9494,0.283145,44.2565,0.012531,25.181,0.259441,3.3001,0.0,157.557,0.0,345.93,0.0,0,155244,0,0,0,0,0,0,0,0,0,0,0,0,0,0,0,0,0,1,0,0,0,0,0,0,0,0,0,0,0,0,0,0,1,0,1,0,0
3952,0.0483,25.0,999.866,12.1508,0.586885,566.633,0.466792,422.914,0.197413,59.3637,4.08723,3.4225,0.0,9919.65,23960.7,3.3799e-08,8.6843e-07,0,139848,0,0,0,0,0,0,0,0,0,0,0,0,0,0,0,0,0,1,0,0,0,0,0,0,0,0,0,0,0,0,0,0,1,0,1,0,0
3952,0.0483,25.0,999.866,12.5677,0.60702,532.581,0.497541,399.97,0.199001,61.5556,4.12011,2.9942,0.0,12753.1,35657,8.1782e-07,5.6604e-07,0,122563,0,0,0,0,0,0,0,0,0,0,0,0,0,0,0,0,0,1,0,0,0,0,0,0,0,0,0,0,0,0,0,0,1,0,1,0,0
3952,0.0483,25.0,999.866,12.2595,0.592135,602.956,0.474212,456.667,0.216557,60.6549,4.48358,3.4265,0.0,11828.5,31189.6,3.3845e-07,5.9019e-07,0,136170,0,0,0,0,0,0,0,0,0,0,0,0,0,0,0,0,0,1,0,0,0,0,0,0,0,0,0,0,0,0,0,0,1,0,1,0,0
3952,0.0483,25.0,999.866,12.4382,0.600765,621.901,0.489811,473.637,0.231992,62.0937,4.80315,3.3945,0.0,,,,4.5506e-07,0,,0,0,0,0,0,0,0,0,0,0,0,0,0,0,0,0,0,1,0,0,0,0,0,0,0,0,0,0,0,0,0,0,1,0,1,0,0
3952,0.0483,25.0,999.866,12.6313,0.610094,598.074,0.485677,452.242,0.219644,60.196,4.54749,3.4958,0.0,,,,7.3452e-07,0,,0,0,0,0,0,0,0,0,0,0,0,0,0,0,0,0,0,1,0,0,0,0,0,0,0,0,0,0,0,0,0,0,1,0,1,0,0
3952,0.0483,25.0,1000.05,12.3627,0.597117,565.501,0.48819,421.874,0.205955,60.9929,4.26408,3.3519,0.0,18375.5,145724,0.0042098,8.186e-07,0,136200,0,0,0,0,0,0,0,0,0,0,0,0,0,0,0,0,0,0,0,0,0,0,0,0,0,0,0,0,0,0,0,0,1,0,1,0,0
3952,0.0483,25.0,1000.05,12.9521,0.625585,409.436,0.335438,227.238,0.0762244,29.7592,1.57814,5.0,0.0,867.088,843.526,123.29,1.0347e-05,0,455575,0,0,0,0,0,0,0,0,0,0,0,0,0,0,0,0,0,0,0,0,0,0,0,0,0,0,0,0,0,0,0,0,1,0,1,0,0
3952,0.0483,25.145,997.225,12.6597,0.611464,603.449,0.517118,454.567,0.235065,63.7053,4.86677,2.5712,0.0,30049.6,23916,29.631,6.2248e-08,0,135645,0,0,0,0,0,0,0,0,0,0,0,0,0,0,0,0,0,0,1,0,0,0,0,0,0,0,0,0,0,0,0,0,0,0,0,0,0
3953,0.0483,25.0,999.866,12.3802,0.597966,628.369,0.497063,468.385,0.232817,61.9617,4.82022,3.9929,0.0,16267.6,0.0,3.2748e-07,1.2693e-06,0,154603,0,0,0,0,0,0,0,0,0,0,0,0,0,0,0,0,0,1,0,0,0,0,0,0,0,0,0,0,0,0,0,0,0,1,1,0,0
3953,0.0483,25.0,999.866,11.921,0.575784,606.199,0.473598,460.373,0.218032,62.4663,4.51412,2.544,0.0,14929.4,12829.2,24.073,4.8896e-08,0,144429,0,0,0,0,0,0,0,0,0,0,0,0,0,0,0,0,0,1,0,0,0,0,0,0,0,0,0,0,0,0,0,0,0,1,1,0,0
3953,0.0483,25.0,999.866,12.4536,0.60151,578.017,0.483139,429.293,0.207408,59.6544,4.29417,3.993,0.0,12396.5,0.0,0.00047472,2.0879e-06,0,141586,0,0,0,0,0,0,0,0,0,0,0,0,0,0,0,0,0,1,0,0,0,0,0,0,0,0,0,0,0,0,0,0,0,1,1,0,0
3953,0.0483,25.0,999.866,12.3802,0.597966,628.369,0.497063,468.385,0.232817,61.9617,4.82022,3.9929,0.0,16267.6,0.0,3.2748e-07,1.2693e-06,0,154603,0,0,0,0,0,0,0,0,0,0,0,0,0,0,0,0,0,1,0,0,0,0,0,0,0,0,0,0,0,0,0,0,0,1,1,0,0
3953,0.0483,25.0,999.866,11.921,0.575784,606.199,0.473598,460.373,0.218032,62.4663,4.51412,2.544,0.0,14929.4,12829.2,24.073,4.8896e-08,0,144429,0,0,0,0,0,0,0,0,0,0,0,0,0,0,0,0,0,1,0,0,0,0,0,0,0,0,0,0,0,0,0,0,0,1,1,0,0
3953,0.0483,25.0,999.866,12.4536,0.60151,578.017,0.483139,429.293,0.207408,59.6544,4.29417,3.993,0.0,12396.5,0.0,0.00047472,2.0879e-06,0,141586,0,0,0,0,0,0,0,0,0,0,0,0,0,0,0,0,0,1,0,0,0,0,0,0,0,0,0,0,0,0,0,0,0,1,1,0,0
3953,0.0483,25.0,999.866,12.3802,0.597966,628.369,0.497063,468.385,0.232817,61.9617,4.82022,3.9929,0.0,,,,1.2693e-06,0,,0,0,0,0,0,0,0,0,0,0,0,0,0,0,0,0,0,1,0,0,0,0,0,0,0,0,0,0,0,0,0,0,0,1,1,0,0
3953,0.0483,25.0,999.866,11.921,0.575784,606.199,0.473598,460.373,0.218032,62.4663,4.51412,2.544,0.0,,,,4.8896e-08,0,,0,0,0,0,0,0,0,0,0,0,0,0,0,0,0,0,0,1,0,0,0,0,0,0,0,0,0,0,0,0,0,0,0,1,1,0,0
3953,0.0483,25.0,999.866,12.4536,0.60151,578.017,0.483139,429.293,0.207408,59.6544,4.29417,3.993,0.0,,,,2.0879e-06,0,,0,0,0,0,0,0,0,0,0,0,0,0,0,0,0,0,0,1,0,0,0,0,0,0,0,0,0,0,0,0,0,0,0,1,1,0,0
3953,0.0483,25.0,1000.05,12.0715,0.583056,627.645,0.491117,481.617,0.23653,64.6342,4.8971,2.6868,0.0,18771,21900.5,11.88,6.1182e-08,0,135752,0,0,0,0,0,0,0,0,0,0,0,0,0,0,0,0,0,0,0,0,0,0,0,0,0,0,0,0,0,0,0,0,0,1,1,0,0
3953,0.0483,25.0,1000.05,11.5512,0.557924,604.002,0.455249,434.127,0.197636,58.6479,4.09184,3.993,0.0,15591,0.0,18.661,1.5191e-06,0,217391,0,0,0,0,0,0,0,0,0,0,0,0,0,0,0,0,0,0,0,0,0,0,0,0,0,0,0,0,0,0,0,0,0,1,1,0,0
3953,0.0483,25.0,1000.05,11.8383,0.571788,575.378,0.459939,430.247,0.197887,60.1492,4.09705,3.4811,0.0,13160.5,60653.8,1.6697e-07,8.8148e-07,0,141935,0,0,0,0,0,0,0,0,0,0,0,0,0,0,0,0,0,0,0,0,0,0,0,0,0,0,0,0,0,0,0,0,0,1,1,0,0
M394,0.0483,25.0,1003.4,15.636,0.755221,697.594,0.627466,546.515,0.342919,65.0901,7.09978,3.265,0.0,37595,64201.3,1.4219e-06,1.7643e-07,0,90639.9,0,0,0,0,0,0,0,0,0,0,0,0,0,0,0,0,0,0,0,0,0,0,0,0,0,0,0,0,0,0,0,0,0,0,0,0,0
M394,0.0483,25.0,1003.4,16.0652,0.775951,930.075,0.696123,784.303,0.545972,75.6516,11.3038,2.561,0.0,222890,0.0,7.0312e-07,5.492e-10,0,66720.6,0,0,0,0,0,0,0,0,0,0,0,0,0,0,0,0,0,0,0,0,0,0,0,0,0,0,0,0,0,0,0,0,0,0,0,0,0
M394,0.0483,25.0,1003.4,15.8471,0.765416,891.321,0.679471,747.477,0.507889,74.4453,10.5153,2.1235,0.0,84314.9,22887,0.6865,5.7363e-11,0,71563,0,0,0,0,0,0,0,0,0,0,0,0,0,0,0,0,0,0,0,0,0,0,0,0,0,0,0,0,0,0,0,0,0,0,0,0,0
3974,0.0483,25.0,998.035,19.4155,0.937769,929.214,0.875695,767.011,0.671667,77.0802,13.9062,2.0932,0.0,100000000.0,419533,18.419,2.9084e-11,0,76796.9,0,0,0,0,0,0,0,0,0,0,0,0,0,0,0,0,0,1,0,0,0,0,0,0,0,0,0,1,0,0,0,0,0,0,0,0,0
3974,0.0483,25.0,998.035,18.5313,0.895061,926.218,0.820053,782.035,0.641311,77.3575,13.2777,2.1109,0.0,424542,55725.8,4.7971,3.2121e-11,0,63461.1,0,0,0,0,0,0,0,0,0,0,0,0,0,0,0,0,0,1,0,0,0,0,0,0,0,0,0,0,0,1,0,0,0,0,0,0,0
3974,0.0483,25.0,998.035,19.0749,0.921317,920.36,0.842598,765.172,0.644732,76.0349,13.3485,2.5794,0.0,100000000.0,0.0,4.1398,8.0122e-10,0,69634.6,0,0,0,0,0,0,0,0,0,0,0,0,0,0,0,0,0,1,0,0,0,0,0,0,0,0,0,0,1,0,0,0,0,0,0,0,0
3975,0.0483,25.0,998.035,13.1915,0.637151,901.313,0.586758,760.837,0.446427,77.7379,9.2428,1.7541,0.0,86878.1,49460.9,20.5,1.2592e-12,0,91283.8,0,0,0,0,0,0,0,0,0,0,0,0,0,0,0,0,0,1,0,0,0,0,0,0,0,0,0,1,0,0,0,0,0,0,0,0,0
3975,0.0483,25.0,998.035,14.6097,0.705648,916.82,0.657779,800.919,0.526828,81.4323,10.9074,1.3693,0.0,117899,50173.1,12.317,3.1757e-15,0,58366.9,0,0,0,0,0,0,0,0,0,0,0,0,0,0,0,0,0,1,0,0,0,0,0,0,0,0,0,0,0,1,0,0,0,0,0,0,0
3975,0.0483,25.0,998.035,17.5247,0.846442,959.336,0.801109,826.466,0.66209,81.5359,13.7079,1.8093,0.0,100000000.0,1.90226e+06,5.3913,8.645e-13,0,59373.8,0,0,0,0,0,0,0,0,0,0,0,0,0,0,0,0,0,1,0,0,0,0,0,0,0,0,0,0,1,0,0,0,0,0,0,0,0
3975,0.0483,25.0,998.035,17.1397,0.827849,946.851,0.778047,808.88,0.629347,80.2892,13.03,1.9397,0.0,369203,729874,2.2471e-05,4.4438e-12,0,53183.4,0,0,0,0,0,0,0,0,0,0,0,0,0,0,0,0,0,1,0,0,0,0,0,0,0,0,0,0,0,1,0,0,0,0,0,0,0